gyrX,gyrY,accX,accY,kalX,kalY,cfilX,cfilY
-208.48,-184.45,2.01,0.18,11.41,4.24,-67.98,-47.86
-209.99,-185.53,2.44,0.06,10.29,3.42,-66.62,-46.98
-211.71,-186.48,2.36,0.09,9.06,2.81,-65.51,-46.01
-213.29,-187.50,2.46,0.07,8.07,2.19,-64.30,-45.15
-214.96,-188.45,2.35,0.19,7.07,1.74,-63.25,-44.24
-216.61,-189.46,2.31,0.27,6.20,1.32,-62.21,-43.44
-218.21,-190.49,2.39,0.22,5.48,0.93,-61.16,-42.67
-219.82,-191.51,2.34,0.12,4.82,0.59,-60.16,-41.94
-221.47,-192.50,2.34,0.18,4.22,0.34,-59.25,-41.21
-223.15,-193.46,2.27,0.18,3.65,0.16,-58.40,-40.47
-224.78,-194.45,2.37,0.34,3.22,0.02,-57.53,-39.80
-226.48,-195.40,2.28,0.25,2.79,-0.07,-56.78,-39.10
-228.16,-196.36,2.20,0.33,2.44,-0.14,-56.03,-38.45
-229.87,-197.32,2.14,0.37,2.11,-0.16,-55.34,-37.81
-231.39,-198.39,2.30,0.28,2.02,-0.29,-54.49,-37.32
-232.86,-199.49,2.15,0.39,1.97,-0.39,-53.64,-36.87
-234.48,-200.49,2.42,0.25,1.86,-0.40,-52.95,-36.35
-236.09,-201.50,2.16,0.36,1.74,-0.38,-52.30,-35.84
-237.78,-202.45,2.11,0.37,1.58,-0.31,-51.74,-35.31
-239.40,-203.47,2.21,0.16,1.52,-0.33,-51.14,-34.86
-241.07,-204.46,2.40,0.18,1.50,-0.31,-50.60,-34.42
-242.69,-205.46,2.26,0.22,1.50,-0.28,-50.04,-33.99
-244.32,-206.45,2.10,0.30,1.48,-0.23,-49.52,-33.56
-245.87,-207.51,2.25,0.22,1.56,-0.26,-48.93,-33.23
-247.52,-208.51,2.17,0.34,1.56,-0.20,-48.47,-32.86
-249.20,-209.48,2.25,0.16,1.54,-0.15,-48.06,-32.47
-250.82,-210.49,2.39,0.27,1.62,-0.11,-47.60,-32.12
-252.37,-211.54,2.36,0.28,1.74,-0.11,-47.09,-31.84
-253.98,-212.57,2.26,0.15,1.79,-0.10,-46.66,-31.54
-255.62,-213.54,2.13,0.19,1.79,-0.04,-46.29,-31.21
-257.23,-214.56,2.40,0.10,1.87,-0.05,-45.88,-30.94
-258.83,-215.59,2.32,0.22,1.93,-0.03,-45.49,-30.67
-260.43,-216.62,2.31,0.28,2.00,-0.00,-45.11,-30.43
-262.06,-217.61,2.20,0.24,2.01,0.04,-44.78,-30.15
-263.69,-218.60,2.20,0.24,2.01,0.09,-44.47,-29.89
-265.33,-219.61,2.31,0.18,2.04,0.10,-44.17,-29.65
-266.93,-220.62,2.38,0.16,2.11,0.11,-43.85,-29.43
-268.59,-221.61,2.43,0.18,2.13,0.14,-43.59,-29.19
-270.22,-222.60,2.30,0.07,2.15,0.14,-43.32,-28.97
-271.86,-223.60,2.44,0.18,2.19,0.15,-43.06,-28.76
-273.43,-224.66,2.35,0.25,2.28,0.13,-42.75,-28.62
-275.08,-225.64,2.32,0.16,2.26,0.16,-42.54,-28.41
-276.69,-226.66,2.35,0.19,2.29,0.16,-42.29,-28.25
-278.31,-227.69,2.25,0.25,2.29,0.16,-42.06,-28.09
-279.90,-228.75,2.31,0.18,2.33,0.13,-41.81,-27.98
-281.54,-229.73,2.32,0.12,2.32,0.15,-41.62,-27.80
-283.17,-230.74,2.37,0.12,2.33,0.15,-41.43,-27.65
-284.80,-231.74,2.34,0.25,2.34,0.18,-41.24,-27.50
-286.41,-232.74,2.36,0.21,2.35,0.20,-41.05,-27.35
-288.04,-233.75,2.33,0.18,2.35,0.20,-40.87,-27.21
-289.68,-234.74,2.46,0.10,2.37,0.20,-40.71,-27.07
-291.29,-235.75,2.26,0.21,2.37,0.20,-40.53,-26.96
-292.93,-236.74,2.35,0.25,2.35,0.23,-40.40,-26.81
-294.51,-237.76,2.32,0.19,2.38,0.21,-40.20,-26.71
-296.14,-238.75,2.16,0.25,2.35,0.24,-40.07,-26.59
-297.83,-239.71,2.13,0.27,2.25,0.28,-40.01,-26.44
-299.48,-240.71,2.45,0.10,2.26,0.26,-39.90,-26.33
-301.13,-241.69,2.47,0.19,2.28,0.27,-39.78,-26.22
-302.75,-242.71,2.44,0.09,2.33,0.23,-39.65,-26.14
-304.38,-243.72,2.42,0.21,2.34,0.22,-39.54,-26.05
-306.05,-244.68,2.23,0.22,2.29,0.26,-39.47,-25.92
-307.68,-245.67,2.32,0.24,2.30,0.26,-39.36,-25.83
-309.36,-246.63,2.15,0.30,2.24,0.31,-39.31,-25.71
-311.02,-247.59,2.20,0.30,2.21,0.34,-39.24,-25.59
-312.69,-248.58,2.41,0.22,2.21,0.33,-39.18,-25.50
-314.26,-249.63,2.38,0.10,2.29,0.24,-39.03,-25.49
-315.93,-250.61,2.45,0.27,2.30,0.26,-38.97,-25.40
-317.57,-251.58,2.42,0.33,2.32,0.29,-38.89,-25.30
-319.23,-252.55,2.28,0.16,2.30,0.29,-38.83,-25.22
-320.85,-253.55,2.35,0.00,2.32,0.23,-38.75,-25.17
-322.46,-254.56,2.29,0.21,2.34,0.21,-38.65,-25.11
-324.07,-255.59,2.37,0.12,2.38,0.17,-38.55,-25.10
-325.70,-256.58,2.28,0.09,2.37,0.15,-38.48,-25.04
-327.34,-257.59,2.39,-0.07,2.37,0.09,-38.42,-25.01
-328.98,-258.59,2.47,0.04,2.39,0.06,-38.36,-24.97
-330.58,-259.63,2.44,0.09,2.43,0.03,-38.27,-24.96
-332.18,-260.65,2.46,0.16,2.47,0.02,-38.17,-24.94
-333.85,-261.63,2.25,0.22,2.41,0.07,-38.16,-24.87
-335.56,-262.57,2.46,0.15,2.35,0.12,-38.18,-24.78
-337.20,-263.58,2.53,0.01,2.40,0.09,-38.12,-24.75
-338.78,-264.61,2.46,0.07,2.46,0.06,-38.02,-24.74
-340.36,-265.64,2.29,0.12,2.47,0.03,-37.92,-24.74
-342.03,-266.61,2.24,0.06,2.41,0.05,-37.91,-24.69
-343.68,-267.62,2.41,0.13,2.40,0.06,-37.89,-24.66
-345.32,-268.61,2.50,0.07,2.41,0.06,-37.85,-24.62
-347.00,-269.55,2.93,-0.29,2.48,0.04,-37.83,-24.55
-348.57,-270.60,2.51,-0.10,2.54,-0.04,-37.73,-24.58
-350.19,-271.61,2.51,0.12,2.56,-0.02,-37.67,-24.56
-351.76,-272.66,2.51,0.07,2.61,-0.06,-37.57,-24.59
-353.39,-273.68,2.52,-0.13,2.61,-0.09,-37.53,-24.58
-354.95,-274.72,2.60,-0.09,2.67,-0.13,-37.42,-24.60
-356.56,-275.73,2.53,0.16,2.67,-0.09,-37.37,-24.58
-358.15,-276.75,2.49,0.00,2.68,-0.10,-37.30,-24.58
-359.82,-277.72,2.38,-0.08,2.59,-0.06,-37.32,-24.53
-361.47,-278.71,2.44,-0.06,2.54,-0.06,-37.31,-24.50
-363.04,-279.77,2.56,-0.04,2.59,-0.10,-37.22,-24.54
-364.70,-280.72,2.67,-0.04,2.58,-0.05,-37.22,-24.47
-366.29,-281.75,2.37,0.15,2.57,-0.04,-37.16,-24.47
-367.94,-282.76,2.71,-0.10,2.57,-0.06,-37.15,-24.47
-369.66,-283.70,2.67,-0.09,2.52,-0.01,-37.21,-24.40
-371.25,-284.70,2.72,-0.04,2.59,-0.02,-37.14,-24.39
-372.89,-285.68,2.52,0.01,2.57,0.00,-37.13,-24.35
-374.53,-286.67,2.43,0.01,2.53,0.01,-37.13,-24.33
-376.18,-287.69,2.61,-0.07,2.53,-0.01,-37.12,-24.33
-377.77,-288.71,2.66,-0.04,2.59,-0.04,-37.05,-24.34
-379.33,-289.77,2.63,-0.09,2.65,-0.10,-36.96,-24.39
-381.00,-290.78,2.66,0.03,2.62,-0.08,-36.98,-24.38
-382.62,-291.84,2.55,-0.07,2.63,-0.12,-36.95,-24.43
-384.19,-292.88,2.69,-0.12,2.68,-0.15,-36.88,-24.45
-385.80,-293.88,2.67,-0.19,2.70,-0.16,-36.84,-24.44
-387.44,-294.87,2.41,-0.06,2.63,-0.13,-36.84,-24.42
-389.10,-295.86,2.64,-0.07,2.61,-0.10,-36.86,-24.39
-390.65,-296.92,2.53,0.00,2.65,-0.13,-36.77,-24.44
-392.17,-298.04,2.62,-0.09,2.73,-0.21,-36.66,-24.54
-393.79,-299.05,2.70,-0.22,2.73,-0.22,-36.63,-24.54
-395.53,-299.96,2.64,-0.12,2.62,-0.11,-36.74,-24.43
-397.14,-300.98,2.68,-0.28,2.64,-0.16,-36.70,-24.45
-398.78,-301.98,2.55,-0.16,2.61,-0.15,-36.71,-24.43
-400.38,-303.01,2.71,-0.21,2.64,-0.18,-36.66,-24.45
-402.03,-303.99,2.53,-0.07,2.60,-0.14,-36.68,-24.42
-403.55,-305.08,2.50,-0.28,2.66,-0.23,-36.58,-24.50
-405.18,-306.07,2.73,-0.25,2.67,-0.23,-36.57,-24.49
-406.71,-307.15,2.55,-0.09,2.72,-0.26,-36.47,-24.54
-408.36,-308.16,2.87,-0.25,2.72,-0.26,-36.48,-24.54
-410.01,-309.13,2.69,-0.27,2.69,-0.22,-36.50,-24.50
-411.61,-310.14,2.48,-0.09,2.66,-0.20,-36.47,-24.49
-413.26,-311.12,2.74,-0.27,2.64,-0.19,-36.49,-24.46
-414.87,-312.16,2.67,-0.16,2.66,-0.21,-36.47,-24.49
-416.42,-313.23,2.79,-0.22,2.74,-0.26,-36.39,-24.54
-417.98,-314.27,2.81,-0.19,2.79,-0.28,-36.32,-24.58
-419.63,-315.24,2.65,-0.22,2.74,-0.23,-36.34,-24.53
-421.27,-316.23,2.64,-0.12,2.71,-0.19,-36.36,-24.50
-422.97,-317.18,2.69,-0.20,2.64,-0.14,-36.43,-24.44
-424.50,-318.30,2.86,-0.25,2.75,-0.25,-36.32,-24.55
-426.06,-319.35,2.86,-0.30,2.82,-0.29,-36.25,-24.59
-427.69,-320.35,2.76,-0.16,2.80,-0.25,-36.26,-24.58
-429.44,-321.27,2.71,-0.28,2.67,-0.18,-36.38,-24.48
-431.03,-322.29,2.90,-0.21,2.74,-0.19,-36.33,-24.49
-432.67,-323.28,2.89,-0.21,2.75,-0.18,-36.34,-24.47
-434.33,-324.27,2.70,-0.21,2.72,-0.16,-36.37,-24.45
-435.92,-325.31,2.77,-0.15,2.75,-0.18,-36.34,-24.48
-437.57,-326.30,2.73,-0.34,2.73,-0.20,-36.35,-24.47
-439.20,-327.31,2.82,-0.22,2.74,-0.21,-36.35,-24.46
-440.78,-328.37,2.73,-0.27,2.79,-0.26,-36.30,-24.52
-442.48,-329.30,2.63,-0.18,2.69,-0.18,-36.38,-24.44
-444.12,-330.29,2.48,-0.19,2.64,-0.17,-36.40,-24.41
-445.71,-331.34,2.64,-0.06,2.66,-0.19,-36.36,-24.45
-447.37,-332.32,2.73,-0.21,2.65,-0.16,-36.40,-24.42
-448.91,-333.41,2.85,-0.18,2.75,-0.23,-36.30,-24.49
-450.58,-334.33,2.59,-0.21,2.68,-0.16,-36.36,-24.41
-452.21,-335.34,2.58,-0.27,2.66,-0.18,-36.36,-24.41
-453.92,-336.28,2.77,-0.21,2.61,-0.13,-36.43,-24.35
-455.49,-337.33,2.81,-0.28,2.69,-0.19,-36.38,-24.39
-457.09,-338.34,2.75,-0.30,2.72,-0.22,-36.35,-24.40
-458.70,-339.34,2.82,-0.21,2.76,-0.22,-36.32,-24.39
-460.40,-340.30,2.69,-0.13,2.69,-0.16,-36.40,-24.34
-462.01,-341.32,2.60,-0.24,2.69,-0.20,-36.38,-24.36
-463.62,-342.34,2.67,-0.24,2.70,-0.22,-36.36,-24.37
-465.25,-343.34,2.65,-0.18,2.68,-0.21,-36.37,-24.36
-466.83,-344.40,2.64,-0.22,2.72,-0.26,-36.32,-24.42
-468.47,-345.40,2.68,-0.28,2.70,-0.26,-36.34,-24.40
-470.10,-346.38,2.61,-0.16,2.67,-0.23,-36.35,-24.38
-471.77,-347.36,2.58,-0.28,2.61,-0.22,-36.39,-24.36
-473.36,-348.42,2.86,-0.30,2.69,-0.28,-36.35,-24.42
-474.95,-349.46,2.68,-0.24,2.72,-0.30,-36.31,-24.44
-476.59,-350.44,2.61,-0.19,2.68,-0.27,-36.33,-24.42
-478.26,-351.40,2.79,-0.40,2.67,-0.26,-36.37,-24.38
-479.88,-352.42,2.70,-0.10,2.68,-0.24,-36.36,-24.38
-481.48,-353.45,2.89,-0.19,2.74,-0.25,-36.33,-24.41
-483.11,-354.45,2.76,-0.16,2.74,-0.24,-36.33,-24.40
-484.73,-355.46,2.84,-0.10,2.76,-0.22,-36.32,-24.40
-486.37,-356.47,2.76,-0.19,2.77,-0.20,-36.33,-24.39
-488.00,-357.47,2.83,-0.33,2.78,-0.22,-36.33,-24.39
-489.58,-358.53,2.83,-0.42,2.83,-0.30,-36.28,-24.45
-490.98,-359.73,3.03,-0.32,3.05,-0.46,-36.05,-24.63
-492.74,-360.58,3.12,-0.67,2.97,-0.37,-36.17,-24.49
-494.33,-361.57,3.08,-0.42,3.02,-0.37,-36.13,-24.48
-496.17,-362.35,2.99,-0.45,2.86,-0.21,-36.33,-24.27
-497.82,-363.37,2.94,-0.40,2.86,-0.27,-36.35,-24.30
-499.49,-364.33,3.05,-0.49,2.88,-0.28,-36.37,-24.27
-501.11,-365.34,2.94,-0.49,2.90,-0.34,-36.35,-24.29
-502.72,-366.37,3.00,-0.54,2.95,-0.41,-36.33,-24.32
-504.33,-367.38,3.04,-0.43,3.00,-0.43,-36.30,-24.33
-505.97,-368.36,2.99,-0.52,3.00,-0.45,-36.30,-24.32
-507.59,-369.36,2.96,-0.50,3.02,-0.48,-36.28,-24.33
-509.24,-370.37,2.96,-0.70,3.01,-0.54,-36.30,-24.36
-510.84,-371.38,3.01,-0.42,3.04,-0.55,-36.27,-24.37
-512.44,-372.40,2.95,-0.37,3.06,-0.55,-36.23,-24.39
-514.10,-373.40,3.03,-0.49,3.04,-0.55,-36.25,-24.39
-515.71,-374.42,2.93,-0.43,3.05,-0.55,-36.23,-24.41
-517.38,-375.40,2.92,-0.42,2.99,-0.53,-36.27,-24.39
-519.05,-376.38,3.03,-0.45,2.97,-0.50,-36.30,-24.38
-520.69,-377.36,3.05,-0.68,2.99,-0.53,-36.30,-24.37
-522.25,-378.43,3.07,-0.58,3.08,-0.60,-36.22,-24.45
-523.86,-379.45,2.92,-0.58,3.07,-0.63,-36.20,-24.47
-525.52,-380.43,3.03,-0.51,3.03,-0.60,-36.23,-24.45
-527.15,-381.44,3.03,-0.55,3.04,-0.61,-36.23,-24.47
-528.78,-382.47,2.91,-0.50,3.03,-0.61,-36.22,-24.49
-530.42,-383.47,3.04,-0.54,3.03,-0.60,-36.22,-24.49
-532.01,-384.49,2.94,-0.48,3.04,-0.61,-36.18,-24.52
-533.68,-385.46,2.94,-0.51,2.99,-0.56,-36.22,-24.49
-535.31,-386.48,2.94,-0.52,2.99,-0.57,-36.22,-24.51
-536.99,-387.45,2.94,-0.51,2.93,-0.53,-36.27,-24.48
-538.65,-388.43,2.86,-0.57,2.89,-0.52,-36.30,-24.46
-540.26,-389.45,2.97,-0.52,2.92,-0.54,-36.27,-24.49
-541.86,-390.50,2.87,-0.52,2.95,-0.58,-36.24,-24.54
-543.56,-391.42,2.88,-0.46,2.87,-0.49,-36.31,-24.46
-545.20,-392.41,2.86,-0.54,2.86,-0.49,-36.32,-24.45
-546.84,-393.42,2.98,-0.45,2.87,-0.49,-36.31,-24.46
-548.50,-394.41,3.07,-0.63,2.89,-0.51,-36.34,-24.46
-550.09,-395.44,3.08,-0.55,2.96,-0.54,-36.29,-24.49
-551.71,-396.44,3.05,-0.42,2.99,-0.52,-36.27,-24.49
-553.34,-397.44,3.09,-0.45,3.02,-0.51,-36.26,-24.48
-555.06,-398.34,3.06,-0.76,2.96,-0.47,-36.34,-24.40
-556.69,-399.35,2.84,-0.43,2.95,-0.47,-36.34,-24.41
-558.41,-400.33,2.69,-0.32,2.84,-0.43,-36.42,-24.38
-560.14,-401.21,3.06,-0.57,2.80,-0.36,-36.50,-24.28
-561.68,-402.25,3.21,-0.54,2.96,-0.43,-36.40,-24.32
-563.23,-403.33,2.97,-0.51,3.05,-0.51,-36.31,-24.41
-564.93,-404.25,2.75,-0.08,2.94,-0.37,-36.38,-24.32
-566.61,-405.28,3.01,-0.73,2.93,-0.47,-36.42,-24.36
-568.26,-406.25,3.07,-0.33,2.96,-0.42,-36.42,-24.34
-569.74,-407.37,3.05,-0.54,3.10,-0.55,-36.27,-24.46
-571.42,-408.31,2.85,-0.37,3.03,-0.47,-36.32,-24.40
-573.06,-409.30,2.91,-0.43,3.01,-0.46,-36.32,-24.39
-574.71,-410.29,2.97,-0.55,3.00,-0.47,-36.33,-24.39
-576.31,-411.32,2.82,-0.60,3.00,-0.52,-36.30,-24.42
-577.98,-412.28,2.96,-0.33,2.96,-0.46,-36.33,-24.39
-579.63,-413.28,2.96,-0.41,2.95,-0.45,-36.34,-24.38
-581.21,-414.32,3.16,-0.34,3.04,-0.46,-36.28,-24.42
-582.84,-415.32,3.16,-0.49,3.06,-0.47,-36.27,-24.43
-584.38,-416.38,3.18,-0.49,3.16,-0.52,-36.17,-24.48
-586.03,-417.35,2.73,-0.45,3.07,-0.48,-36.20,-24.45
-587.74,-418.32,2.91,-0.46,2.99,-0.45,-36.27,-24.42
-589.34,-419.34,2.88,-0.42,2.99,-0.46,-36.25,-24.45
-590.95,-420.36,2.96,-0.48,3.00,-0.48,-36.22,-24.47
-592.60,-421.32,2.86,-0.37,2.96,-0.43,-36.24,-24.42
-594.26,-422.30,2.77,-0.27,2.90,-0.38,-36.27,-24.40
-595.88,-423.32,2.95,-0.49,2.91,-0.41,-36.26,-24.42
-597.50,-424.34,3.13,-0.39,2.95,-0.42,-36.24,-24.44
-599.14,-425.33,2.89,-0.57,2.93,-0.43,-36.25,-24.43
-600.75,-426.35,3.01,-0.46,2.96,-0.45,-36.23,-24.45
-602.37,-427.35,2.90,-0.48,2.96,-0.46,-36.21,-24.46
-604.06,-428.30,2.88,-0.33,2.89,-0.40,-36.27,-24.41
-605.67,-429.32,2.93,-0.40,2.91,-0.41,-36.25,-24.42
-607.29,-430.33,2.86,-0.52,2.91,-0.43,-36.25,-24.43
-608.91,-431.32,2.77,-0.46,2.89,-0.43,-36.24,-24.43
-610.59,-432.28,2.84,-0.48,2.84,-0.41,-36.28,-24.39
-612.24,-433.28,2.96,-0.42,2.83,-0.41,-36.30,-24.39
-613.89,-434.27,3.07,-0.39,2.87,-0.40,-36.31,-24.39
-615.52,-435.28,2.83,-0.42,2.86,-0.41,-36.31,-24.39
-617.16,-436.27,2.76,-0.43,2.83,-0.41,-36.32,-24.38
-618.79,-437.28,2.95,-0.31,2.85,-0.40,-36.32,-24.39
-620.41,-438.30,2.92,-0.52,2.88,-0.44,-36.30,-24.41
-622.04,-439.30,2.85,-0.33,2.87,-0.42,-36.30,-24.41
-623.66,-440.31,2.93,-0.42,2.89,-0.43,-36.28,-24.42
-625.30,-441.29,2.87,-0.45,2.88,-0.42,-36.29,-24.41
-626.91,-442.32,2.90,-0.46,2.90,-0.45,-36.28,-24.43
-628.58,-443.29,2.83,-0.39,2.86,-0.41,-36.31,-24.40
-630.19,-444.30,2.85,-0.42,2.87,-0.42,-36.29,-24.41
-631.83,-445.28,2.89,-0.42,2.87,-0.41,-36.30,-24.40
-633.46,-446.30,2.77,-0.36,2.85,-0.41,-36.30,-24.41
-635.08,-447.32,2.82,-0.42,2.86,-0.43,-36.29,-24.43
-636.71,-448.30,3.00,-0.43,2.88,-0.42,-36.28,-24.41
-638.35,-449.33,2.78,-0.48,2.86,-0.45,-36.29,-24.45
-639.95,-450.36,2.79,-0.30,2.87,-0.44,-36.26,-24.47
-641.60,-451.36,2.96,-0.51,2.86,-0.45,-36.28,-24.47
-643.48,-452.15,2.82,-0.28,2.65,-0.26,-36.52,-24.26
-645.25,-453.03,2.63,-0.24,2.54,-0.15,-36.66,-24.14
-647.47,-453.78,2.48,-0.07,2.05,0.07,-37.22,-23.90
-649.16,-454.66,1.29,0.60,1.87,0.26,-37.31,-23.77
-650.46,-455.80,2.02,0.13,2.17,0.12,-36.98,-23.91
-652.14,-456.80,1.98,0.37,2.10,0.18,-37.03,-23.89
-654.14,-457.61,1.34,0.62,1.65,0.42,-37.42,-23.69
-655.77,-458.59,-0.65,1.76,1.21,0.70,-37.51,-23.61
-656.17,-460.06,1.97,0.21,2.31,0.25,-36.32,-24.07
-651.04,-457.94,3.62,2.23,8.00,3.19,-29.80,-20.98
-652.63,-459.36,7.55,4.01,7.82,3.01,-29.83,-21.35
-645.94,-459.88,8.94,5.68,14.66,3.93,-21.86,-20.76
-648.67,-460.47,14.96,5.88,13.60,4.69,-23.00,-20.27
-657.51,-460.54,9.59,6.54,6.79,5.87,-30.19,-19.27
-660.45,-461.43,13.46,5.77,6.84,6.03,-31.26,-19.12
-663.22,-462.33,13.07,6.03,7.03,6.20,-32.15,-18.97
-664.36,-463.22,12.88,6.46,8.60,6.42,-31.44,-18.81
-665.54,-464.21,13.10,6.48,9.95,6.52,-30.80,-18.75
-667.75,-465.08,13.14,6.30,10.27,6.67,-31.16,-18.59
-668.60,-466.12,13.49,6.89,11.76,6.76,-30.18,-18.56
-670.73,-466.97,12.87,6.70,11.83,6.94,-30.51,-18.37
-672.35,-467.86,13.37,6.91,12.43,7.11,-30.31,-18.21
-674.12,-468.79,13.33,6.97,12.78,7.21,-30.26,-18.09
-677.01,-469.50,13.76,7.13,12.26,7.49,-31.28,-17.77
-678.24,-470.58,14.16,6.76,13.28,7.35,-30.64,-17.82
-679.04,-471.67,13.75,7.04,14.41,7.27,-29.63,-17.88
-679.99,-472.68,13.92,6.95,15.21,7.24,-28.81,-17.86
-680.79,-473.81,13.29,7.12,15.85,7.16,-27.88,-17.94
-682.30,-474.81,13.67,7.12,15.81,7.19,-27.68,-17.90
-683.74,-475.83,13.61,7.24,15.80,7.23,-27.40,-17.87
-685.35,-476.78,13.77,7.30,15.64,7.32,-27.30,-17.78
-686.49,-477.87,13.47,7.31,15.79,7.28,-26.77,-17.82
-687.46,-478.97,13.64,7.35,16.06,7.26,-26.09,-17.86
-689.33,-479.93,13.89,7.42,15.55,7.36,-26.28,-17.78
-691.20,-480.86,13.86,7.34,15.10,7.46,-26.46,-17.66
-693.12,-481.76,14.22,7.34,14.73,7.56,-26.68,-17.53
-694.67,-482.73,14.04,7.38,14.71,7.59,-26.54,-17.46
-696.34,-483.76,13.84,7.47,14.53,7.57,-26.53,-17.46
-697.87,-484.76,14.13,7.37,14.54,7.56,-26.37,-17.43
-699.69,-485.69,13.71,7.50,14.23,7.64,-26.52,-17.32
-701.71,-486.67,13.92,7.42,13.85,7.64,-26.84,-17.27
-703.00,-487.68,13.53,7.67,14.06,7.66,-26.46,-17.24
-704.62,-488.63,14.01,7.56,14.04,7.70,-26.40,-17.16
-706.21,-489.62,14.34,7.47,14.11,7.68,-26.29,-17.13
-708.11,-490.59,13.93,7.53,13.85,7.70,-26.51,-17.07
-710.13,-491.53,14.11,7.53,13.57,7.73,-26.82,-16.99
-711.54,-492.53,14.07,7.54,13.84,7.70,-26.55,-16.97
-712.66,-493.59,14.21,7.54,14.33,7.63,-25.98,-17.01
-714.51,-494.60,14.48,7.58,14.18,7.62,-26.14,-16.99
-716.09,-495.62,14.27,7.56,14.24,7.59,-26.05,-16.99
-717.75,-496.61,14.21,7.59,14.22,7.61,-26.03,-16.96
-719.25,-497.61,14.27,7.65,14.34,7.62,-25.86,-16.93
-720.71,-498.62,14.09,7.63,14.43,7.62,-25.66,-16.92
-721.35,-499.79,14.26,7.66,15.20,7.49,-24.68,-17.06
-723.60,-500.70,14.49,7.72,14.55,7.62,-25.27,-16.94
-725.92,-501.57,14.28,7.71,13.93,7.75,-25.91,-16.79
-727.66,-502.50,14.17,7.66,13.87,7.79,-25.98,-16.71
-730.05,-503.39,14.42,7.81,13.35,7.89,-26.66,-16.58
-731.96,-504.34,13.93,7.76,13.24,7.91,-26.87,-16.52
-733.20,-505.43,14.45,7.68,13.81,7.80,-26.41,-16.60
-735.02,-506.41,13.98,7.75,13.72,7.81,-26.54,-16.56
-736.45,-507.45,14.25,7.66,14.02,7.74,-26.28,-16.59
-737.77,-508.47,14.26,7.88,14.37,7.76,-25.92,-16.59
-739.59,-509.48,15.11,7.64,14.39,7.73,-26.03,-16.59
-741.07,-510.53,14.81,7.70,14.64,7.67,-25.82,-16.63
-743.60,-511.36,14.36,7.82,13.91,7.84,-26.65,-16.45
-745.53,-512.37,13.93,7.80,13.74,7.83,-26.87,-16.45
-746.52,-513.43,14.62,7.90,14.49,7.78,-26.17,-16.49
-748.01,-514.49,14.38,7.85,14.65,7.75,-25.97,-16.53
-749.65,-515.47,14.31,7.89,14.65,7.79,-25.93,-16.50
-751.32,-516.46,14.40,7.75,14.62,7.80,-25.93,-16.48
-752.70,-517.55,14.64,7.84,14.89,7.74,-25.62,-16.55
-754.35,-518.55,14.51,7.70,14.85,7.73,-25.60,-16.54
-756.06,-519.54,14.10,8.06,14.69,7.81,-25.66,-16.51
-757.35,-520.51,14.43,7.65,14.95,7.81,-25.30,-16.47
-758.31,-521.67,14.61,7.87,15.45,7.70,-24.62,-16.61
-760.20,-522.72,13.88,7.74,14.96,7.67,-24.90,-16.65
-761.60,-523.82,14.42,8.03,15.04,7.67,-24.66,-16.72
-763.13,-524.81,14.40,7.98,14.99,7.75,-24.57,-16.68
-763.92,-525.91,14.37,7.87,15.52,7.71,-23.77,-16.75
-765.54,-526.92,14.50,7.69,15.29,7.72,-23.79,-16.74
-767.59,-527.86,14.66,7.82,14.77,7.81,-24.22,-16.67
-769.30,-528.85,14.51,7.91,14.59,7.86,-24.31,-16.63
-769.61,-530.07,14.48,7.98,15.57,7.72,-23.07,-16.82
-770.73,-531.13,14.65,7.94,15.73,7.74,-22.63,-16.84
-772.88,-532.05,14.50,7.95,14.98,7.88,-23.21,-16.74
-774.73,-533.06,14.36,7.89,14.57,7.90,-23.49,-16.73
-776.34,-534.12,14.45,7.98,14.45,7.90,-23.51,-16.76
-778.21,-535.06,14.49,7.84,14.15,7.98,-23.79,-16.67
-780.53,-535.84,15.03,7.79,13.64,8.15,-24.46,-16.45
-782.28,-536.84,14.55,7.87,13.63,8.12,-24.58,-16.43
-784.38,-537.70,15.11,7.83,13.46,8.20,-25.01,-16.28
-786.14,-538.72,14.65,7.93,13.54,8.15,-25.12,-16.29
-787.90,-539.66,14.54,7.97,13.60,8.17,-25.22,-16.22
-789.26,-540.68,14.54,7.94,13.99,8.12,-24.93,-16.24
-790.97,-541.69,14.92,8.03,14.11,8.10,-24.97,-16.24
-793.12,-542.69,14.56,7.92,13.79,8.06,-25.46,-16.24
-794.04,-543.83,14.51,8.00,14.53,7.94,-24.75,-16.35
-794.38,-545.10,14.83,7.99,15.66,7.73,-23.49,-16.60
-795.95,-546.12,14.54,7.96,15.52,7.76,-23.47,-16.60
-798.33,-547.01,14.43,8.04,14.71,7.91,-24.24,-16.47
-800.04,-547.94,14.36,8.08,14.57,8.01,-24.34,-16.38
-801.06,-549.03,14.54,8.02,15.05,7.95,-23.76,-16.45
-802.29,-550.08,14.62,7.96,15.28,7.93,-23.41,-16.48
-804.20,-551.07,14.49,7.96,14.88,7.96,-23.72,-16.45
-805.61,-552.12,14.79,8.16,14.99,7.96,-23.54,-16.48
-807.27,-553.12,14.84,8.07,14.91,8.00,-23.60,-16.45
-808.77,-554.13,14.84,7.99,14.96,8.01,-23.50,-16.45
-810.56,-555.11,14.79,7.98,14.76,8.04,-23.69,-16.41
-811.94,-556.22,14.51,8.12,14.88,7.98,-23.49,-16.50
-813.48,-557.24,14.78,8.02,14.88,7.99,-23.43,-16.49
-814.67,-558.27,14.51,8.12,15.12,8.01,-23.05,-16.50
-816.22,-559.26,14.81,7.93,15.06,8.02,-23.03,-16.48
-817.99,-560.27,14.64,7.97,14.81,8.03,-23.22,-16.46
-820.22,-561.19,14.42,8.10,14.18,8.13,-23.86,-16.36
-821.46,-562.28,14.28,8.24,14.45,8.09,-23.52,-16.42
-822.86,-563.28,14.51,8.07,14.57,8.11,-23.35,-16.41
-823.98,-564.34,14.96,8.01,15.00,8.06,-22.89,-16.45
-825.57,-565.37,14.78,8.00,14.92,8.05,-22.91,-16.46
-827.72,-566.30,14.60,8.01,14.37,8.12,-23.48,-16.37
-829.96,-567.15,14.52,8.04,13.84,8.24,-24.10,-16.21
-830.87,-568.31,14.92,8.03,14.57,8.09,-23.42,-16.35
-832.40,-569.32,14.83,7.98,14.65,8.07,-23.36,-16.35
-834.29,-570.29,14.44,8.10,14.36,8.11,-23.66,-16.30
-836.54,-571.20,14.84,7.89,13.91,8.16,-24.28,-16.21
-838.57,-572.08,14.70,8.11,13.70,8.25,-24.67,-16.09
-840.10,-573.10,14.81,8.17,13.98,8.22,-24.56,-16.09
-841.17,-574.17,15.11,8.10,14.64,8.14,-24.00,-16.15
-843.23,-575.11,15.70,8.02,14.52,8.17,-24.38,-16.09
-845.19,-576.05,14.60,8.05,14.30,8.20,-24.70,-16.03
-846.87,-577.05,14.81,8.16,14.38,8.19,-24.74,-16.02
-848.31,-578.08,14.92,8.16,14.68,8.16,-24.54,-16.03
-849.88,-579.09,14.70,7.97,14.79,8.11,-24.48,-16.05
-850.77,-580.24,14.39,8.30,15.36,8.02,-23.77,-16.18
-852.54,-581.23,14.66,8.25,15.14,8.07,-23.94,-16.15
-853.64,-582.35,14.59,8.17,15.49,7.99,-23.45,-16.25
-854.76,-583.45,14.86,8.16,15.80,7.95,-22.99,-16.33
-856.32,-584.45,14.88,8.14,15.67,7.99,-22.98,-16.31
-857.52,-585.52,14.92,8.21,15.85,7.99,-22.62,-16.36
-859.33,-586.55,14.72,8.24,15.46,8.04,-22.86,-16.36
-860.92,-587.52,14.45,8.39,15.25,8.14,-22.89,-16.31
-862.65,-588.49,14.65,8.13,14.99,8.19,-23.05,-16.26
-864.62,-589.43,14.19,8.11,14.50,8.24,-23.45,-16.19
-865.56,-590.57,14.32,8.14,14.94,8.13,-22.84,-16.31
-867.34,-591.57,14.57,8.26,14.66,8.17,-23.06,-16.29
-868.42,-592.64,14.32,8.17,14.96,8.14,-22.60,-16.34
-870.41,-593.59,14.83,8.16,14.55,8.21,-23.01,-16.27
-872.16,-594.67,15.04,7.97,14.44,8.12,-23.17,-16.34
-874.29,-595.61,14.49,8.08,13.96,8.18,-23.71,-16.26
-877.21,-596.23,14.65,6.42,12.97,8.17,-24.98,-15.95
-878.99,-597.20,14.15,8.10,13.03,8.18,-25.12,-15.91
-880.68,-598.18,14.20,8.06,13.17,8.15,-25.17,-15.90
-882.42,-599.18,14.21,8.11,13.26,8.13,-25.27,-15.90
-884.09,-600.23,14.46,7.99,13.47,8.05,-25.28,-15.95
-885.22,-601.31,14.59,8.01,14.11,7.96,-24.77,-16.03
-887.62,-602.20,14.57,8.08,13.60,8.05,-25.50,-15.92
-889.20,-603.23,14.33,7.97,13.83,8.00,-25.42,-15.95
-890.70,-604.25,14.70,8.00,14.16,7.96,-25.25,-15.98
-892.77,-605.26,14.14,8.13,13.86,7.97,-25.67,-15.98
-894.66,-606.23,13.63,8.19,13.67,8.02,-25.92,-15.95
-896.41,-607.23,13.64,8.14,13.65,8.04,-26.01,-15.94
-897.83,-608.26,13.37,8.63,13.84,8.11,-25.80,-15.95
-898.41,-609.17,13.53,8.13,14.70,8.19,-24.78,-15.86
-899.79,-610.24,13.77,8.34,14.76,8.16,-24.56,-15.92
-902.15,-611.16,13.98,8.13,14.05,8.23,-25.29,-15.83
-902.78,-612.29,14.02,8.33,14.88,8.14,-24.32,-15.95
-905.04,-613.18,13.78,8.09,14.17,8.22,-24.96,-15.85
-907.25,-614.12,13.05,8.40,13.49,8.31,-25.57,-15.78
-909.61,-615.04,14.23,8.21,13.04,8.36,-26.24,-15.71
-910.84,-616.10,14.09,8.28,13.58,8.30,-25.81,-15.76
-912.13,-617.14,14.00,8.39,13.95,8.28,-25.45,-15.80
-913.55,-618.22,14.08,8.21,14.18,8.21,-25.24,-15.87
-915.53,-619.20,14.23,8.10,13.93,8.21,-25.56,-15.85
-917.59,-620.19,14.03,8.39,13.63,8.25,-25.95,-15.83
-919.35,-621.17,13.70,8.28,13.56,8.27,-26.06,-15.81
-920.85,-622.20,13.79,8.38,13.76,8.28,-25.90,-15.83
-922.58,-623.24,13.72,8.43,13.71,8.28,-25.98,-15.86
-924.87,-624.07,15.04,7.96,13.46,8.36,-26.53,-15.70
-926.42,-625.10,14.49,8.21,13.78,8.31,-26.38,-15.73
-928.68,-626.05,14.46,8.14,13.49,8.32,-26.92,-15.69
-931.64,-626.84,15.46,8.10,12.87,8.44,-28.06,-15.50
-932.24,-628.01,14.88,8.06,14.22,8.22,-26.92,-15.68
-935.01,-628.75,15.00,7.93,13.59,8.37,-27.91,-15.45
-936.94,-629.76,14.56,8.31,13.71,8.33,-28.06,-15.46
-938.78,-630.70,14.90,7.91,13.96,8.28,-28.11,-15.43
-939.96,-631.79,14.60,8.15,14.66,8.16,-27.53,-15.54
-941.12,-632.93,14.34,8.12,15.18,8.01,-26.97,-15.68
-943.54,-633.83,14.99,8.16,14.70,8.09,-27.61,-15.59
-944.17,-635.11,14.87,8.18,15.74,7.86,-26.52,-15.87
-946.25,-636.08,15.03,8.12,15.42,7.91,-26.86,-15.85
-948.39,-636.97,14.15,8.40,14.94,8.08,-27.27,-15.73
-951.52,-637.69,13.99,8.09,13.71,8.30,-28.62,-15.47